Folder: DataEngGroup26/data

Note: data/202001_Brussel_BEFB_NoExpiry.txt
01/02/2020,09:01,54.1,54.3,54.1,54.3, 135
01/02/2020,09:13,54.3,54.3,54.3,54.3, 1000
01/02/2020,09:19,54.1,54.1,54.1,54.1, 1
01/02/2020,10:21,54.1,54.1,54.1,54.1, 190
01/02/2020,10:25,54.1,54.1,54.1,54.1, 556
01/02/2020,10:44,54,54,54,54, 218
01/02/2020,10:56,53.9,53.9,53.9,53.9, 641
01/02/2020,11:05,53.9,54,53.9,54, 851
01/02/2020,11:22,54.1,54.1,54.1,54.1, 286
01/02/2020,11:33,54.2,54.2,54.2,54.2, 1
01/02/2020,12:03,54.2,54.2,54.2,54.2, 10
01/02/2020,12:21,54.2,54.2,54.2,54.2, 87
01/02/2020,12:23,54.1,54.1,54.1,54.1, 98
01/02/2020,12:47,54.1,54.1,54.1,54.1, 200
01/02/2020,12:54,54.1,54.1,54.1,54.1, 53
01/02/2020,13:37,54.1,54.1,54.1,54.1, 692
01/02/2020,13:57,54.2,54.2,54.2,54.2, 100
01/02/2020,14:46,54.2,54.2,54.2,54.2, 89
01/02/2020,15:09,54.1,54.1,54.1,54.1, 216
01/02/2020,15:20,54,54,54,54, 88
01/02/2020,16:04,54,54,54,54, 180
01/02/2020,16:11,54,54,54,54, 192
01/02/2020,16:29,54.1,54.1,54.1,54.1, 92
01/02/2020,16:38,54.1,54.1,54.1,54.1, 17
01/02/2020,16:59,54.1,54.1,54.1,54.1, 53
01/02/2020,17:04,54.1,54.1,54.1,54.1, 361
01/02/2020,17:08,54.2,54.2,54.2,54.2, 80
01/02/2020,17:12,54.2,54.2,54.2,54.2, 20
01/02/2020,17:30,54.1,54.1,54.1,54.1, 374
01/02/2020,17:36,54.3,54.3,54.3,54.3, 9938
01/03/2020,09:01,54.4,54.4,54.4,54.4, 134
01/03/2020,09:01,54.3,54.3,54.3,54.3, 24
01/03/2020,09:03,54.4,54.4,54.4,54.4, 114
01/03/2020,09:04,54.4,54.4,54.4,54.4, 88
01/03/2020,09:06,54.3,54.3,54.3,54.3, 157
01/03/2020,09:06,54.3,54.3,54.3,54.3, 90
01/03/2020,09:10,54.2,54.2,54.1,54.1, 351
01/03/2020,09:20,54.2,54.3,54.2,54.2, 326
01/03/2020,09:46,54.3,54.3,54.3,54.3, 156
01/03/2020,10:06,54.4,54.4,54.4,54.4, 50
01/03/2020,10:14,54.3,54.3,54.3,54.3, 595
01/03/2020,10:22,54.4,54.4,54.4,54.4, 100
01/03/2020,11:02,54.3,54.3,54.3,54.3, 751
01/03/2020,11:14,54.3,54.3,54.3,54.3, 128
01/03/2020,11:19,54.4,54.4,54.4,54.4, 826
01/03/2020,11:22,54.4,54.4,54.4,54.4, 100
01/03/2020,11:38,54.3,54.3,54.3,54.3, 385
01/03/2020,12:00,54.3,54.3,54.3,54.3, 47
01/03/2020,12:18,54.4,54.4,54.4,54.4, 100
01/03/2020,12:23,54.4,54.4,54.4,54.4, 55
01/03/2020,12:32,54.4,54.4,54.4,54.4, 90
01/03/2020,12:37,54.3,54.3,54.3,54.3, 15
01/03/2020,12:40,54.3,54.3,54.3,54.3, 441
01/03/2020,12:55,54.3,54.3,54.2,54.3, 1109
01/03/2020,13:55,54.3,54.3,54.3,54.3, 35
01/03/2020,14:14,54.4,54.4,54.4,54.4, 1
01/03/2020,14:31,54.4,54.5,54.4,54.4, 3629
01/03/2020,14:31,54.5,54.5,54.5,54.5, 213
01/03/2020,14:41,54.6,54.6,54.6,54.6, 185
01/03/2020,14:51,54.6,54.6,54.6,54.6, 619
01/03/2020,14:53,54.7,54.7,54.7,54.7, 276
01/03/2020,14:53,54.8,54.8,54.8,54.8, 376
01/03/2020,14:55,54.8,54.8,54.8,54.8, 101
01/03/2020,14:56,54.8,54.8,54.8,54.8, 88
01/03/2020,14:58,54.9,54.9,54.9,54.9, 213
01/03/2020,14:59,54.9,54.9,54.9,54.9, 181
01/03/2020,15:01,54.9,54.9,54.9,54.9, 65
01/03/2020,15:32,54.9,54.9,54.9,54.9, 94
01/03/2020,15:47,54.9,54.9,54.9,54.9, 50
01/03/2020,15:51,54.9,54.9,54.9,54.9, 105
01/03/2020,15:57,54.9,54.9,54.9,54.9, 540
01/03/2020,16:22,54.9,54.9,54.9,54.9, 45
01/03/2020,16:30,55,55,55,55, 1
01/03/2

Note: data/202001_Budapest_HU0000073507_NoExpiry.txt
01/02/2020,09:18,446,446,446,446, 424
01/02/2020,09:19,443,443,443,443, 236
01/02/2020,09:20,445,445,445,445, 45
01/02/2020,09:23,446,446,446,446, 34
01/02/2020,09:53,446,446,446,446, 10000
01/02/2020,10:02,444,444,444,444, 1138
01/02/2020,10:03,444.5,444.5,444.5,444.5, 5000
01/02/2020,10:08,446,446,446,446, 62
01/02/2020,10:18,446,446,446,446, 104
01/02/2020,10:28,445,445,445,445, 1020
01/02/2020,10:28,445,445,445,445, 1450
01/02/2020,10:50,445,445,445,445, 3350
01/02/2020,10:57,445,445,445,445, 15
01/02/2020,11:01,443.5,443.5,443,443, 2000
01/02/2020,11:05,443,443,443,443, 4744
01/02/2020,11:20,443,443,442,442, 993
01/02/2020,11:22,445,445,445,445, 1000
01/02/2020,11:36,442.5,442.5,442.5,442.5, 100
01/02/2020,11:45,445,445,445,445, 38
01/02/2020,11:48,445,445,445,445, 1978
01/02/2020,13:03,444,444,444,444, 22363
01/02/2020,13:38,444,444,444,444, 8
01/02/2020,13:51,443.5,443.5,442.5,442.5, 12358
01/02/2020,13:52,443,443,443,443, 6
01/02/2020,13:54,443,443,443,443, 2994
01/02/2020,13:54,443,443,443,443, 3000
01/02/2020,14:07,444,444,444,444, 4039
01/02/2020,14:12,444.5,444.5,444.5,444.5, 11018
01/02/2020,14:20,444.5,444.5,444.5,444.5, 550
01/02/2020,14:23,444.5,445.5,444.5,445.5, 5000
01/02/2020,14:33,445,445.5,445,445.5, 1440
01/02/2020,14:42,446,446,446,446, 1100
01/02/2020,14:54,444.5,444.5,444.5,444.5, 25
01/02/2020,14:58,446,446,446,446, 12
01/03/2020,09:06,445,445,445,445, 83
01/03/2020,09:07,445.5,445.5,445,445, 2715
01/03/2020,09:07,445,445,445,445, 83
01/03/2020,09:08,445,445,445,445, 82
01/03/2020,09:12,445,445,445,445, 82
01/03/2020,09:12,445,445,445,445, 1778
01/03/2020,09:22,444,444,444,444, 3370
01/03/2020,10:12,443.5,443.5,443.5,443.5, 6924
01/03/2020,11:11,445,445,445,445, 1000
01/03/2020,11:50,444,444,444,444, 3500
01/03/2020,12:58,444,444,444,444, 2333
01/03/2020,12:58,444,444,444,444, 48
01/03/2020,13:47,444,444.5,444,444.5, 8467
01/03/2020,13:51,444.5,444.5,444,444, 8000
01/03/2020,14:20,444,444,444,444, 1370
01/03/2020,14:40,444,444,444,444, 1571
01/03/2020,14:49,444,444,444,444, 3246
01/03/2020,14:49,444.5,444.5,444.5,444.5, 100
01/03/2020,14:56,444.5,444.5,444.5,444.5, 3246
01/03/2020,15:00,444,444,444,444, 4500
01/06/2020,09:05,445,445,445,445, 50
01/06/2020,09:15,443.5,443.5,443.5,443.5, 5000
01/06/2020,09:28,444,444,444,444, 120
01/06/2020,09:32,444,444,444,444, 22
01/06/2020,09:59,443,443,443,443, 300
01/06/2020,10:05,443,443,443,443, 5
01/06/2020,10:08,443,443,443,443, 1413
01/06/2020,10:21,443,443,442.5,442.5, 21398
01/06/2020,10:26,442.5,442.5,441.5,441.5, 5044
01/06/2020,10:34,441.5,441.5,441.5,441.5, 3000
01/06/2020,10:41,441,441,441,441, 7848
01/06/2020,10:43,440.5,440.5,440,440, 30497
01/06/2020,10:50,440,440,440,440, 23625
01/06/2020,10:50,440,440,440,440, 6082
01/06/2020,10:53,439.5,440,439.5,440, 17944
01/06/2020,11:03,441,441,441,441, 60
01/06/2020,11:05,441,441,441,441, 1978
01/06/2020,11:05,441,441,441,441, 3001
01/06/2020,11:07,441,441.5,441,441.5, 9366
01/06/2020,11:07,441.5,442,441.5,442, 1041
01/06/2020

Note: data/202001_Forex_AFN_NoExpiry.txt
01/31/2020,08:52,76.66,76.66,76.66,76.66, 1

Note: data/202001_Forex_AMD_NoExpiry.txt
01/31/2020,08:52,478.69,478.69,478.69,478.69, 1

Note: data/202001_Forex_AOA_NoExpiry.txt
01/01/2020,11:46,455.8685,455.8685,455.8685,455.8685, 1
01/02/2020,09:34,455.8685,455.8685,455.8685,455.8685, 1
01/03/2020,09:01,455.8685,455.8685,455.8685,455.8685, 1
01/06/2020,09:34,455.8685,455.8685,455.8685,455.8685, 1
01/07/2020,08:31,482.2271,482.2271,482.2271,482.2271, 1
01/08/2020,08:35,483.6885,483.6885,483.6885,483.6885, 1
01/09/2020,08:34,483.6885,483.6885,483.6885,483.6885, 1
01/10/2020,08:35,484.2745,484.2745,484.2745,484.2745, 1
01/13/2020,08:46,484.2745,484.2745,484.2745,484.2745, 1
01/14/2020,09:19,484.2745,484.2745,484.2745,484.2745, 1
01/15/2020,09:07,486.021,486.021,486.021,486.021, 1
01/16/2020,08:40,486.021,486.021,486.021,486.021, 1
01/17/2020,08:37,489.3875,489.3875,489.3875,489.3875, 1
01/20/2020,08:25,489.3875,489.3875,489.3875,489.3875, 1
01/21/2020,08:22,489.3875,489.3875,489.3875,489.3875, 1
01/22/2020,08:19,493.218,493.218,493.218,493.218, 1
01/23/2020,08:55,493.218,493.218,493.218,493.218, 1
01/24/2020,08:16,493.218,493.218,493.218,493.218, 1
01/27/2020,08:43,496.5535,496.5535,496.5535,496.5535, 1
01/28/2020,08:59,496.5535,496.5535,496.5535,496.5535, 1
01/29/2020,08:40,496.384,496.384,496.384,496.384, 1
01/30/2020,08:59,496.384,496.384,496.384,496.384, 1
01/31/2020,08:52,495.798,495.798,495.798,495.798, 1

Note: data/202001_Forex_AWG_NoExpiry.txt
01/31/2020,08:52,1.79,1.79,1.79,1.79, 1

Note: data/202001_Forex_AZN_NoExpiry.txt
01/31/2020,08:52,1.7,1.7,1.7,1.7, 1

Note: data/202001_Forex_BAM_NoExpiry.txt
01/31/2020,08:52,1.7774,1.7774,1.7774,1.7774, 1

File: 202001_Sydney_TGA_NoExpiry.txt
01/03/2020,00:39,.21,.21,.21,.21, 8196
01/03/2020,00:52,.21,.21,.21,.21, 41804
01/03/2020,00:55,.21,.21,.21,.21, 59027
01/03/2020,01:06,.21,.21,.21,.21, 30708
01/03/2020,01:27,.21,.21,.21,.21, 5650
01/03/2020,01:34,.205,.205,.205,.205, 5000
01/03/2020,05:11,.215,.215,.21,.21, 16000
01/03/2020,06:19,.215,.22,.215,.22, 64701
01/03/2020,06:32,.22,.22,.22,.22, 12800
01/06/2020,00:29,.23,.23,.23,.23, 3900
01/06/2020,03:41,.22,.22,.22,.22, 2300
01/06/2020,03:54,.215,.215,.21,.21, 17700
01/07/2020,02:42,.21,.21,.21,.21, 16132
01/07/2020,03:45,.207,.21,.207,.21, 74043
01/07/2020,04:29,.21,.21,.21,.21, 1353
01/07/2020,05:41,.21,.21,.21,.21, 2490
01/08/2020,01:39,.215,.215,.215,.215, 81
01/08/2020,01:48,.205,.215,.205,.215, 5233
01/08/2020,02:04,.205,.205,.205,.205, 2299
01/08/2020,02:21,.215,.215,.215,.215, 23
01/08/2020,02:31,.21,.21,.21,.21, 1400
01/08/2020,05:07,.21,.21,.21,.21, 3818
01/08/2020,05:54,.21,.21,.21,.21, 14544
01/08/2020,05:56,.21,.21,.21,.21, 155
01/09/2020,00:36,.21,.215,.21,.215, 3883
01/09/2020,00:37,.215,.215,.215,.215, 11282
01/09/2020,02:13,.22,.22,.22,.22, 29
01/09/2020,02:20,.215,.215,.215,.215, 30315
01/09/2020,02:31,.215,.215,.215,.215, 19
01/09/2020,02:42,.21,.21,.21,.21, 76045
01/09/2020,02:43,.21,.21,.21,.21, 2300
01/09/2020,04:35,.21,.21,.21,.21, 510
01/10/2020,00:30,.21,.21,.21,.21, 2500
01/10/2020,03:22,.215,.215,.215,.215, 1546
01/10/2020,04:58,.215,.215,.215,.215, 25000
01/10/2020,05:38,.22,.22,.22,.22, 15208
01/10/2020,06:06,.215,.215,.215,.215, 20000
01/10/2020,06:11,.22,.22,.22,.22, 404
01/10/2020,06:16,.215,.215,.215,.215, 5400
01/10/2020,06:17,.22,.22,.22,.22, 38669
01/13/2020,00:30,.215,.215,.215,.215, 2500
01/13/2020,01:35,.215,.22,.215,.22, 14040
01/13/2020,03:22,.215,.22,.215,.22, 25252
01/13/2020,05:50,.218,.218,.215,.215, 73849
01/13/2020,06:32,.215,.215,.215,.215, 703
01/14/2020,01:25,.215,.215,.215,.215, 101
01/14/2020,01:54,.215,.215,.215,.215, 284501
01/14/2020,02:37,.21,.215,.21,.215, 12402
01/14/2020,06:32,.215,.215,.215,.215, 1664
01/15/2020,00:30,.215,.22,.215,.22, 21944
01/15/2020,01:23,.215,.22,.215,.22, 10099
01/15/2020,02:27,.215,.218,.215,.218, 40456
01/15/2020,03:40,.215,.215,.215,.215, 2072
01/15/2020,04:55,.21,.21,.21,.21, 15000
01/15/2020,04:56,.212,.215,.212,.215, 678
01/15/2020,05:04,.212,.215,.212,.215, 15984
01/15/2020,05:38,.22,.22,.22,.22, 397
01/15/2020,05:57,.215,.215,.215,.215, 10650
01/16/2020,00:29,.215,.215,.215,.215, 1800
01/16/2020,00:45,.215,.215,.215,.215, 4000
01/16/2020,01:30,.215,.215,.215,.215, 100000
01/16/2020,01:30,.22,.22,.22,.22, 977
01/16/2020,03:54,.22,.22,.22,.22, 1254
01/16/2020,05:00,.215,.215,.215,.215, 31000
01/17/2020,00:29,.215,.215,.215,.215, 5000
01/17/2020,00:30,.22,.22,.22,.22, 1297
01/17/2020,01:18,.22,.22,.22,.22, 9297
01/17/2020,02:05,.22,.22,.22,.22, 15239
01/17/2020,02:24,.225,.227,.225,.227, 20231
01/17/2020,02:41,.227,.227,.227,.227, 165
01/17/2020,02:56,.227,.23,.227,.23, 75277
01/17/2020,03:09,.225,.225,.225,.225, 2813
01/17/2020,03:11,.23,.23,.23,.23, 31923
01/17/2020,03:21,.23,.23,.23,.23, 591956
01/17/2020,04:07,.235,.235,.235,.235, 35000
01/17/2020,04:08,.235,.235,.235,.235, 329
01/17/2020,04:10,.237,.237,.235,.235, 329
01/17/2020,05:32,.237,.237,.235,.235, 10000
01/17/2020,05:48,.237,.237,.235,.235, 45000
01/17/2020,05:50,.237,.237,.235,.235, 1000
01/17/2020,06:31,.235,.235,.235,.235, 36287
01/20/2020,00:30,.235,.24,.235,.24, 23498
01/20/2020,00:33,.24,.24,.24,.24, 859
01/20/2020,00:39,.24,.24,.24,.24, 24363
01/20/2020,00:39,.24,.24,.24,.24, 126
01/20/2020,02:05,.24,.24,.24,.24, 44
01/20/2020,02:28,.235,.235,.225,.227, 349222
01/20/2020,02:32,.227,.23,.227,.23, 30809
01/20/2020,03:43,.227,.23,.227,.23, 450
01/20/2020,03:55,.227,.23,.227,.23, 468
01/20/2020,04:36,.23,.23,.23,.23, 12227
01/20/2020,04:48,.227,.227,.227,.227, 4000
01/20/2020,04:58,.227,.227,.227,.227, 1209
01/20/2020,05:00,.227,.227,.227,.227, 378
01/20/2020,05:14,.227,.227,.227,.227, 398
01/20/2020,05:37,.23,.23,.227,.23, 1577
01/20/2020,05:51,.227,.227,.227,.227, 436
01/20/2020,05:54,.227,.227,.227,.227, 4050
01/20/2020,06:05,.227,.227,.227,.227, 266
01/20/2020,06:07,.227,.23,.225,.225, 21596
01/20/2020,06:15,.225,.225,.225,.225, 4200
01/20/2020,06:31,.225,.225,.225,.225, 22489
01/21/2020,00:30,.225,.225,.225,.225, 31600
01/21/2020,00:51,.225,.225,.225,.225, 7420
01/21/2020,02:19,.225,.23,.225,.227, 13689
01/21/2020,03:30,.23,.23,.23,.23, 3884
01/21/2020,04:04,.225,.225,.225,.225, 876
01/21/2020,04:12,.225,.225,.225,.225, 129000
01/21/2020,04:14,.23,.235,.23,.235, 19260
01/21/2020,04:18,.227,.227,.225,.225, 6524
01/21/2020,05:22,.227,.227,.227,.227, 628
01/21/2020,06:32,.225,.225,.225,.225, 38359
01/22/2020,01:58,.225,.225,.22,.22, 200142
01/22/2020,02:38,.22,.22,.22,.22, 28564
01/22/2020,02:43,.215,.215,.215,.215, 9547
01/22/2020,03:41,.215,.215,.215,.215, 25000
01/22/2020,06:32,.215,.215,.215,.215, 17337
01/23/2020,00:37,.215,.215,.215,.215, 10000
01/23/2020,00:40,.215,.215,.215,.215, 2283
01/23/2020,01:28,.215,.215,.215,.215, 3162
01/23/2020,03:29,.215,.215,.215,.215, 458
01/23/2020,06:15,.215,.215,.215,.215, 16639
01/24/2020,00:30,.22,.22,.22,.22, 16534
01/24/2020,00:48,.22,.22,.22,.22, 10700
01/24/2020,01:32,.22,.22,.22,.22, 14101
01/24/2020,01:50,.22,.22,.22,.22, 10202
01/24/2020,02:13,.22,.22,.22,.22, 48463
01/24/2020,04:18,.215,.215,.215,.215, 853
01/28/2020,00:30,.215,.215,.215,.215, 24000
01/28/2020,00:32,.215,.215,.215,.215, 1000
01/28/2020,00:35,.215,.215,.215,.215, 10000
01/28/2020,02:38,.215,.215,.215,.215, 10613
01/28/2020,03:44,.215,.215,.215,.215, 5000
01/28/2020,03:47,.215,.215,.215,.215, 29387
01/28/2020,05:36,.215,.215,.215,.215, 5943
01/29/2020,01:15,.22,.22,.22,.22, 30113
01/29/2020,03:38,.225,.225,.225,.225, 31033
01/29/2020,03:52,.22,.22,.22,.22, 17854
01/29/2020,03:54,.22,.22,.22,.22, 48000
01/30/2020,05:06,.225,.23,.225,.225, 39814

File: 202002_Sydney_TGA_NoExpiry.txt
02/03/2020,00:45,.225,.225,.225,.225, 34
02/03/2020,01:52,.225,.225,.22,.225, 4421
02/03/2020,02:14,.225,.225,.225,.225, 30
02/03/2020,02:47,.22,.22,.22,.22, 56354
02/04/2020,02:24,.215,.215,.21,.21, 119434
02/04/2020,02:27,.215,.215,.215,.215, 28
02/04/2020,02:33,.215,.215,.215,.215, 28
02/04/2020,02:35,.215,.215,.215,.215, 10
02/04/2020,02:37,.215,.215,.215,.215, 4
02/04/2020,02:55,.212,.212,.212,.212, 26
02/04/2020,03:01,.212,.212,.212,.212, 27
02/04/2020,03:06,.212,.212,.212,.212, 26
02/04/2020,03:08,.22,.22,.22,.22, 45
02/04/2020,03:10,.22,.22,.22,.22, 8
02/04/2020,03:12,.22,.22,.22,.22, 9
02/04/2020,03:14,.22,.22,.22,.22, 9
02/04/2020,03:16,.22,.22,.22,.22, 4
02/04/2020,03:18,.22,.22,.22,.22, 8
02/04/2020,03:20,.22,.22,.22,.22, 8
02/04/2020,03:22,.22,.22,.22,.22, 8
02/04/2020,03:25,.22,.22,.22,.22, 24
02/04/2020,03:32,.22,.22,.22,.22, 24
02/04/2020,03:34,.22,.22,.22,.22, 8
02/04/2020,03:36,.22,.22,.22,.22, 8
02/04/2020,03:38,.22,.22,.22,.22, 8
02/04/2020,03:40,.22,.22,.22,.22, 8
02/04/2020,03:42,.22,.22,.22,.22, 8
02/04/2020,03:46,.22,.22,.22,.22, 24
02/04/2020,03:53,.22,.22,.22,.22, 24
02/04/2020,03:55,.22,.22,.22,.22, 7
02/04/2020,03:57,.22,.22,.22,.22, 8
02/04/2020,03:59,.22,.22,.22,.22, 9
02/04/2020,04:01,.22,.22,.22,.22, 8
02/04/2020,04:02,.22,.22,.22,.22, 4
02/04/2020,04:10,.22,.22,.22,.22, 28
02/04/2020,04:13,.22,.22,.22,.22, 1
02/04/2020,04:20,.22,.22,.22,.22, 28
02/04/2020,04:24,.22,.22,.22,.22, 5
02/04/2020,04:26,.22,.22,.22,.22, 8
02/04/2020,04:28,.22,.22,.22,.22, 11
02/04/2020,04:30,.22,.22,.22,.22, 8
02/04/2020,04:32,.22,.22,.22,.22, 8
02/04/2020,04:38,.22,.22,.22,.22, 26
02/04/2020,04:43,.22,.22,.22,.22, 13
02/04/2020,04:45,.22,.22,.22,.22, 9
02/04/2020,04:47,.22,.22,.22,.22, 11
02/04/2020,04:49,.22,.22,.22,.22, 9
02/04/2020,04:51,.22,.22,.22,.22, 9
02/04/2020,04:53,.22,.22,.22,.22, 8
02/04/2020,04:55,.22,.22,.22,.22, 8
02/04/2020,04:57,.22,.22,.22,.22, 9
02/04/2020,04:59,.22,.22,.22,.22, 10
02/04/2020,05:01,.22,.22,.22,.22, 9
02/04/2020,05:02,.22,.22,.22,.22, 4
02/04/2020,05:08,.22,.22,.22,.22, 23
02/04/2020,05:13,.22,.22,.22,.22, 23
02/04/2020,05:18,.22,.22,.22,.22, 23
02/04/2020,05:23,.22,.22,.22,.22, 23
02/04/2020,05:28,.22,.22,.22,.22, 24
02/04/2020,05:33,.22,.22,.22,.22, 21
02/04/2020,05:35,.22,.22,.22,.22, 11
02/04/2020,05:37,.22,.22,.22,.22, 9
02/04/2020,05:39,.22,.22,.22,.22, 11
02/04/2020,05:41,.22,.22,.22,.22, 10
02/04/2020,05:43,.22,.22,.22,.22, 6
02/04/2020,05:48,.22,.22,.22,.22, 28
02/04/2020,05:52,.22,.22,.22,.22, 22
02/04/2020,05:56,.22,.22,.22,.22, 22
02/04/2020,06:00,.22,.22,.22,.22, 23
02/04/2020,06:03,.22,.22,.22,.22, 13
02/04/2020,06:05,.22,.22,.22,.22, 14
02/04/2020,06:07,.22,.22,.22,.22, 16
02/04/2020,06:09,.22,.22,.22,.22, 16
02/04/2020,06:11,.22,.22,.22,.22, 16
02/04/2020,06:13,.22,.22,.22,.22, 8
02/04/2020,06:16,.22,.22,.22,.22, 28
02/04/2020,06:18,.22,.22,.22,.22, 19
02/05/2020,01:05,.215,.22,.215,.22, 3333
02/05/2020,02:29,.215,.22,.215,.22, 30676
02/05/2020,03:05,.22,.22,.22,.22, 1485
02/06/2020,00:29,.22,.22,.22,.22, 1606
02/06/2020,01:49,.212,.212,.212,.212, 215
02/06/2020,02:48,.212,.215,.21,.21, 33367
02/06/2020,03:47,.215,.215,.215,.215, 2775
02/06/2020,05:10,.218,.218,.218,.218, 320
02/06/2020,05:55,.215,.215,.215,.215, 4000
02/07/2020,00:30,.215,.215,.215,.215, 1299
02/07/2020,01:29,.215,.215,.215,.215, 407
02/07/2020,01:58,.215,.215,.215,.215, 434
02/07/2020,02:49,.218,.218,.215,.215, 4585
02/07/2020,03:12,.218,.218,.215,.215, 2439
02/07/2020,03:43,.218,.218,.215,.215, 418
02/07/2020,04:33,.215,.215,.215,.215, 409
02/07/2020,05:20,.215,.215,.215,.215, 399
02/07/2020,06:06,.22,.22,.22,.22, 13000
02/10/2020,00:30,.225,.225,.225,.225, 11235
02/10/2020,00:56,.22,.22,.22,.22, 343
02/10/2020,01:58,.215,.215,.215,.215, 850
02/11/2020,02:17,.215,.215,.215,.215, 2064
02/11/2020,02:25,.215,.215,.215,.215, 11644
02/11/2020,02:29,.215,.215,.215,.215, 2000
02/11/2020,06:20,.215,.215,.215,.215, 553
02/13/2020,01:00,.21,.21,.21,.21, 872
02/13/2020,03:57,.21,.21,.21,.21, 700
02/13/2020,06:02,.205,.205,.205,.205, 1038
02/14/2020,00:52,.205,.205,.205,.205, 50000
02/14/2020,02:21,.205,.205,.205,.205, 2255
02/17/2020,01:01,.2,.2,.2,.2, 47761
02/17/2020,02:32,.2,.2,.2,.2, 24588
02/17/2020,02:59,.2,.2,.2,.2, 12000
02/17/2020,06:31,.195,.195,.195,.195, 51677
02/18/2020,02:13,.195,.2,.195,.2, 10181
02/18/2020,02:58,.2,.2,.2,.2, 133
02/18/2020,04:29,.2,.2,.2,.2, 183
02/18/2020,05:07,.2,.2,.2,.2, 211
02/18/2020,05:43,.2,.2,.2,.2, 154
02/18/2020,06:08,.2,.2,.2,.2, 117
02/18/2020,06:18,.2,.2,.2,.2, 2
02/18/2020,06:31,.195,.195,.195,.195, 4994
02/19/2020,01:44,.2,.2,.2,.2, 24
02/19/2020,02:12,.2,.2,.2,.2, 22
02/19/2020,02:57,.2,.2,.2,.2, 36
02/19/2020,03:21,.2,.2,.2,.2, 22
02/19/2020,04:08,.2,.2,.2,.2, 67038
02/19/2020,04:32,.2,.2,.2,.2, 40004
02/19/2020,05:44,.2,.2,.2,.2, 17
02/19/2020,06:15,.2,.2,.2,.2, 27
02/20/2020,01:04,.195,.195,.195,.195, 1000
02/20/2020,03:13,.195,.195,.195,.195, 5180
02/20/2020,03:25,.195,.195,.195,.195, 14265
02/20/2020,05:53,.195,.195,.195,.195, 9005
02/21/2020,01:02,.197,.197,.195,.195, 34793
02/21/2020,01:47,.2,.2,.2,.2, 5
02/21/2020,01:53,.2,.2,.2,.2, 14207
02/21/2020,02:27,.2,.2,.2,.2, 5
02/21/2020,03:41,.2,.2,.2,.2, 5
02/21/2020,04:58,.19,.19,.19,.19, 44283
02/21/2020,05:37,.19,.19,.185,.185, 24554
02/21/2020,06:11,.19,.19,.19,.19, 5
02/21/2020,06:13,.19,.19,.19,.19, 4
02/21/2020,06:15,.19,.19,.19,.19, 4
02/21/2020,06:17,.19,.19,.19,.19, 5
02/21/2020,06:19,.19,.19,.19,.19, 4
02/21/2020,06:31,.19,.19,.19,.19, 168
02/24/2020,01:04,.185,.185,.17,.17, 122104
02/24/2020,05:08,.185,.185,.185,.185, 25700
02/24/2020,06:16,.19,.19,.19,.19, 1486
02/24/2020,06:31,.195,.195,.195,.195, 72
02/25/2020,00:41,.195,.195,.195,.195, 23887
02/25/2020,01:45,.2,.2,.2,.2, 31625
02/25/2020,02:51,.195,.195,.195,.195, 32000
02/25/2020,03:41,.192,.195,.192,.195, 22337
02/25/2020,04:56,.195,.195,.195,.195, 8800
02/25/2020,06:32,.2,.2,.2,.2, 201
02/26/2020,01:15,.195,.195,.195,.195, 54170
02/26/2020,02:51,.195,.195,.195,.195, 5000
02/26/2020,03:59,.195,.195,.195,.195, 4400
02/26/2020,04:30,.195,.195,.195,.195, 21420
02/26/2020,05:53,.19,.19,.19,.19, 1154
02/26/2020,06:14,.185,.185,.185,.185, 2000
02/26/2020,06:31,.19,.19,.19,.19, 202